images,presentation.thisRepN,presentation.thisTrialN,presentation.thisN,presentation.thisIndex,Welcome_Message.started,mouse.started,mouse.x,mouse.y,mouse.leftButton,mouse.midButton,mouse.rightButton,mouse.time,face.started,participant,session,date,expName,psychopyVersion,frameRate,
,,,,,10.943557874998078,2.662499900907278e-05,[-0.09111111111111111],[-0.12444444444444444],[1],[0],[0],[2.6625975829956587],,586829,001,2023-11-29_22h15.18.273,stimulus_presentation,2023.1.2,59.78398551548137,
real_images/p5.png,0,0,0,10,,,,,,,,,13.612893583980622,586829,001,2023-11-29_22h15.18.273,stimulus_presentation,2023.1.2,59.78398551548137,
ai_images/p4.png,0,1,1,3,,,,,,,,,14.09620504200575,586829,001,2023-11-29_22h15.18.273,stimulus_presentation,2023.1.2,59.78398551548137,
real_images/p3.png,0,2,2,8,,,,,,,,,14.60551370898611,586829,001,2023-11-29_22h15.18.273,stimulus_presentation,2023.1.2,59.78398551548137,
ai_images/p3.png,0,3,3,2,,,,,,,,,15.102312458999222,586829,001,2023-11-29_22h15.18.273,stimulus_presentation,2023.1.2,59.78398551548137,
ai_images/p6.png,0,4,4,5,,,,,,,,,15.598406499979319,586829,001,2023-11-29_22h15.18.273,stimulus_presentation,2023.1.2,59.78398551548137,
ai_images/p5.png,0,5,5,4,,,,,,,,,16.100088084000163,586829,001,2023-11-29_22h15.18.273,stimulus_presentation,2023.1.2,59.78398551548137,
real_images/p4.png,0,6,6,9,,,,,,,,,16.599473084002966,586829,001,2023-11-29_22h15.18.273,stimulus_presentation,2023.1.2,59.78398551548137,
ai_images/p2.png,0,7,7,1,,,,,,,,,17.094828917004634,586829,001,2023-11-29_22h15.18.273,stimulus_presentation,2023.1.2,59.78398551548137,
ai_images/p1.png,0,8,8,0,,,,,,,,,17.600583166989964,586829,001,2023-11-29_22h15.18.273,stimulus_presentation,2023.1.2,59.78398551548137,
real_images/p6.png,0,9,9,11,,,,,,,,,18.098168791999342,586829,001,2023-11-29_22h15.18.273,stimulus_presentation,2023.1.2,59.78398551548137,
real_images/p1.png,0,10,10,6,,,,,,,,,18.602813083998626,586829,001,2023-11-29_22h15.18.273,stimulus_presentation,2023.1.2,59.78398551548137,
real_images/p2.png,0,11,11,7,,,,,,,,,19.096382666990394,586829,001,2023-11-29_22h15.18.273,stimulus_presentation,2023.1.2,59.78398551548137,
ai_images/p3.png,1,0,12,2,,,,,,,,,19.60163150000153,586829,001,2023-11-29_22h15.18.273,stimulus_presentation,2023.1.2,59.78398551548137,
real_images/p1.png,1,1,13,6,,,,,,,,,20.099469416978536,586829,001,2023-11-29_22h15.18.273,stimulus_presentation,2023.1.2,59.78398551548137,
ai_images/p5.png,1,2,14,4,,,,,,,,,20.59779983398039,586829,001,2023-11-29_22h15.18.273,stimulus_presentation,2023.1.2,59.78398551548137,
ai_images/p4.png,1,3,15,3,,,,,,,,,21.101894749997882,586829,001,2023-11-29_22h15.18.273,stimulus_presentation,2023.1.2,59.78398551548137,
ai_images/p6.png,1,4,16,5,,,,,,,,,21.598644874989986,586829,001,2023-11-29_22h15.18.273,stimulus_presentation,2023.1.2,59.78398551548137,
ai_images/p1.png,1,5,17,0,,,,,,,,,22.10049387498293,586829,001,2023-11-29_22h15.18.273,stimulus_presentation,2023.1.2,59.78398551548137,
real_images/p2.png,1,6,18,7,,,,,,,,,22.60052383400034,586829,001,2023-11-29_22h15.18.273,stimulus_presentation,2023.1.2,59.78398551548137,
real_images/p3.png,1,7,19,8,,,,,,,,,23.099795124988304,586829,001,2023-11-29_22h15.18.273,stimulus_presentation,2023.1.2,59.78398551548137,
real_images/p4.png,1,8,20,9,,,,,,,,,23.601051083998755,586829,001,2023-11-29_22h15.18.273,stimulus_presentation,2023.1.2,59.78398551548137,
real_images/p6.png,1,9,21,11,,,,,,,,,24.09935241698986,586829,001,2023-11-29_22h15.18.273,stimulus_presentation,2023.1.2,59.78398551548137,
real_images/p5.png,1,10,22,10,,,,,,,,,24.599409333983203,586829,001,2023-11-29_22h15.18.273,stimulus_presentation,2023.1.2,59.78398551548137,
ai_images/p2.png,1,11,23,1,,,,,,,,,25.09949870899436,586829,001,2023-11-29_22h15.18.273,stimulus_presentation,2023.1.2,59.78398551548137,
real_images/p3.png,2,0,24,8,,,,,,,,,25.598751749988878,586829,001,2023-11-29_22h15.18.273,stimulus_presentation,2023.1.2,59.78398551548137,
real_images/p6.png,2,1,25,11,,,,,,,,,26.100478334003128,586829,001,2023-11-29_22h15.18.273,stimulus_presentation,2023.1.2,59.78398551548137,
real_images/p4.png,2,2,26,9,,,,,,,,,26.599604958988493,586829,001,2023-11-29_22h15.18.273,stimulus_presentation,2023.1.2,59.78398551548137,
ai_images/p4.png,2,3,27,3,,,,,,,,,27.10162791699986,586829,001,2023-11-29_22h15.18.273,stimulus_presentation,2023.1.2,59.78398551548137,
ai_images/p5.png,2,4,28,4,,,,,,,,,27.597971791983582,586829,001,2023-11-29_22h15.18.273,stimulus_presentation,2023.1.2,59.78398551548137,
real_images/p1.png,2,5,29,6,,,,,,,,,28.098318333999487,586829,001,2023-11-29_22h15.18.273,stimulus_presentation,2023.1.2,59.78398551548137,
ai_images/p6.png,2,6,30,5,,,,,,,,,28.60181854199618,586829,001,2023-11-29_22h15.18.273,stimulus_presentation,2023.1.2,59.78398551548137,
real_images/p2.png,2,7,31,7,,,,,,,,,29.099238083988894,586829,001,2023-11-29_22h15.18.273,stimulus_presentation,2023.1.2,59.78398551548137,
ai_images/p3.png,2,8,32,2,,,,,,,,,29.59613241700572,586829,001,2023-11-29_22h15.18.273,stimulus_presentation,2023.1.2,59.78398551548137,
ai_images/p1.png,2,9,33,0,,,,,,,,,30.098295042000245,586829,001,2023-11-29_22h15.18.273,stimulus_presentation,2023.1.2,59.78398551548137,
real_images/p5.png,2,10,34,10,,,,,,,,,30.59789437497966,586829,001,2023-11-29_22h15.18.273,stimulus_presentation,2023.1.2,59.78398551548137,
ai_images/p2.png,2,11,35,1,,,,,,,,,31.100405125005636,586829,001,2023-11-29_22h15.18.273,stimulus_presentation,2023.1.2,59.78398551548137,
ai_images/p4.png,3,0,36,3,,,,,,,,,31.59749008397921,586829,001,2023-11-29_22h15.18.273,stimulus_presentation,2023.1.2,59.78398551548137,
real_images/p3.png,3,1,37,8,,,,,,,,,32.099797083996236,586829,001,2023-11-29_22h15.18.273,stimulus_presentation,2023.1.2,59.78398551548137,
real_images/p5.png,3,2,38,10,,,,,,,,,32.599156874988694,586829,001,2023-11-29_22h15.18.273,stimulus_presentation,2023.1.2,59.78398551548137,
ai_images/p1.png,3,3,39,0,,,,,,,,,33.09890966699459,586829,001,2023-11-29_22h15.18.273,stimulus_presentation,2023.1.2,59.78398551548137,
real_images/p1.png,3,4,40,6,,,,,,,,,33.5997537089861,586829,001,2023-11-29_22h15.18.273,stimulus_presentation,2023.1.2,59.78398551548137,
ai_images/p3.png,3,5,41,2,,,,,,,,,34.10140012498596,586829,001,2023-11-29_22h15.18.273,stimulus_presentation,2023.1.2,59.78398551548137,
real_images/p2.png,3,6,42,7,,,,,,,,,34.59782716698828,586829,001,2023-11-29_22h15.18.273,stimulus_presentation,2023.1.2,59.78398551548137,
ai_images/p6.png,3,7,43,5,,,,,,,,,35.097922458982794,586829,001,2023-11-29_22h15.18.273,stimulus_presentation,2023.1.2,59.78398551548137,
real_images/p6.png,3,8,44,11,,,,,,,,,35.59934808398248,586829,001,2023-11-29_22h15.18.273,stimulus_presentation,2023.1.2,59.78398551548137,
real_images/p4.png,3,9,45,9,,,,,,,,,36.099927874980494,586829,001,2023-11-29_22h15.18.273,stimulus_presentation,2023.1.2,59.78398551548137,
ai_images/p2.png,3,10,46,1,,,,,,,,,36.59886904200539,586829,001,2023-11-29_22h15.18.273,stimulus_presentation,2023.1.2,59.78398551548137,
ai_images/p5.png,3,11,47,4,,,,,,,,,37.09893158398336,586829,001,2023-11-29_22h15.18.273,stimulus_presentation,2023.1.2,59.78398551548137,
ai_images/p1.png,4,0,48,0,,,,,,,,,37.60082374999183,586829,001,2023-11-29_22h15.18.273,stimulus_presentation,2023.1.2,59.78398551548137,
real_images/p2.png,4,1,49,7,,,,,,,,,38.099364499998046,586829,001,2023-11-29_22h15.18.273,stimulus_presentation,2023.1.2,59.78398551548137,
real_images/p4.png,4,2,50,9,,,,,,,,,38.597179499978665,586829,001,2023-11-29_22h15.18.273,stimulus_presentation,2023.1.2,59.78398551548137,
real_images/p3.png,4,3,51,8,,,,,,,,,39.09850812499644,586829,001,2023-11-29_22h15.18.273,stimulus_presentation,2023.1.2,59.78398551548137,
ai_images/p5.png,4,4,52,4,,,,,,,,,39.59879133399227,586829,001,2023-11-29_22h15.18.273,stimulus_presentation,2023.1.2,59.78398551548137,
real_images/p5.png,4,5,53,10,,,,,,,,,40.097377416997915,586829,001,2023-11-29_22h15.18.273,stimulus_presentation,2023.1.2,59.78398551548137,
real_images/p1.png,4,6,54,6,,,,,,,,,40.59964170900639,586829,001,2023-11-29_22h15.18.273,stimulus_presentation,2023.1.2,59.78398551548137,
real_images/p6.png,4,7,55,11,,,,,,,,,41.0963111250021,586829,001,2023-11-29_22h15.18.273,stimulus_presentation,2023.1.2,59.78398551548137,
ai_images/p4.png,4,8,56,3,,,,,,,,,41.598059874988394,586829,001,2023-11-29_22h15.18.273,stimulus_presentation,2023.1.2,59.78398551548137,
ai_images/p6.png,4,9,57,5,,,,,,,,,42.10123562498484,586829,001,2023-11-29_22h15.18.273,stimulus_presentation,2023.1.2,59.78398551548137,
ai_images/p2.png,4,10,58,1,,,,,,,,,42.59950191699318,586829,001,2023-11-29_22h15.18.273,stimulus_presentation,2023.1.2,59.78398551548137,
ai_images/p3.png,4,11,59,2,,,,,,,,,43.09854449998238,586829,001,2023-11-29_22h15.18.273,stimulus_presentation,2023.1.2,59.78398551548137,
